{
  "resourceType": "Bundle",
  "id": "transaction-bundle-20201223081606929861",
  "type": "transaction",
  "timestamp": "2020-12-23T00:16:06.929934Z",
  "entry": [
    {
      "fullUrl": "http://test.fhir.org/r4/argo-pl-q2-qr-06e1f0dd-5fbe-4480-9bb4-6b54ec02d31b",
      "resource": {
        "resourceType": "QuestionnaireResponse",
        "id": "argo-pl-q2-qr-06e1f0dd-5fbe-4480-9bb4-6b54ec02d31b",
        "meta": {
          "versionId": "1",
          "lastUpdated": "2020-12-22T21:43:46-08:00",
          "source": "Health_eData_Inc",
          "tag": [
            {
              "code": "2020-Sep"
            },
            {
              "code": "2021-Jan"
            }
          ]
        },
        "questionnaire": "http://www.fhir.org/guides/argonaut/patient-list/Questionniare/argo-pl-q2",
        "status": "completed",
        "subject": {
          "reference": "Patient/06e1f0dd-5fbe-4480-9bb4-6b54ec02d31b",
          "display": "Mr. Elden718 Halvorson124"
        },
        "authored": "2020-12-23T00:16:02.705929Z",
        "item": [
          {
            "linkId": "q1",
            "text": "COVID Contact",
            "answer": [
              {
                "valueBoolean": false
              }
            ]
          },
          {
            "linkId": "q2",
            "text": "Age/Legal Sex",
            "answer": [
              {
                "valueString": "46/Male"
              }
            ]
          },
          {
            "linkId": "q3",
            "text": "SAPS II Score",
            "answer": [
              {
                "valueInteger": 43
              }
            ]
          },
          {
            "linkId": "q4",
            "text": "SAPS II Score change",
            "answer": [
              {
                "valueInteger": 9
              }
            ]
          },
          {
            "linkId": "q5",
            "text": "SOFA Score",
            "answer": [
              {
                "valueInteger": 7
              }
            ]
          },
          {
            "linkId": "q6",
            "text": "Unit",
            "answer": [
              {
                "valueString": "ICU"
              }
            ]
          }
        ]
      },
      "request": {
        "method": "PUT",
        "url": "QuestionnaireResponse/argo-pl-q2-qr-06e1f0dd-5fbe-4480-9bb4-6b54ec02d31b"
      }
    },
    {
      "fullUrl": "http://test.fhir.org/r4/argo-pl-q2-qr-b1cf5f57-b061-4b7f-aa9d-6283a121694b",
      "resource": {
        "resourceType": "QuestionnaireResponse",
        "id": "argo-pl-q2-qr-b1cf5f57-b061-4b7f-aa9d-6283a121694b",
        "meta": {
          "versionId": "1",
          "lastUpdated": "2020-12-22T21:43:46-08:00",
          "source": "Health_eData_Inc",
          "tag": [
            {
              "code": "2020-Sep"
            },
            {
              "code": "2021-Jan"
            }
          ]
        },
        "questionnaire": "http://www.fhir.org/guides/argonaut/patient-list/Questionniare/argo-pl-q2",
        "status": "completed",
        "subject": {
          "reference": "Patient/b1cf5f57-b061-4b7f-aa9d-6283a121694b",
          "display": "Mr. Garland107 Conn188"
        },
        "authored": "2020-12-23T00:16:02.945847Z",
        "item": [
          {
            "linkId": "q1",
            "text": "COVID Contact",
            "answer": [
              {
                "valueBoolean": false
              }
            ]
          },
          {
            "linkId": "q2",
            "text": "Age/Legal Sex",
            "answer": [
              {
                "valueString": "25/Male"
              }
            ]
          },
          {
            "linkId": "q3",
            "text": "SAPS II Score",
            "answer": [
              {
                "valueInteger": 42
              }
            ]
          },
          {
            "linkId": "q4",
            "text": "SAPS II Score change",
            "answer": [
              {
                "valueInteger": -1
              }
            ]
          },
          {
            "linkId": "q5",
            "text": "SOFA Score",
            "answer": [
              {
                "valueInteger": 1
              }
            ]
          },
          {
            "linkId": "q6",
            "text": "Unit",
            "answer": [
              {
                "valueString": "ICU"
              }
            ]
          }
        ]
      },
      "request": {
        "method": "PUT",
        "url": "QuestionnaireResponse/argo-pl-q2-qr-b1cf5f57-b061-4b7f-aa9d-6283a121694b"
      }
    },
    {
      "fullUrl": "http://test.fhir.org/r4/argo-pl-q2-qr-aad0894e-47f4-4ffc-8fab-8fe5487110d2",
      "resource": {
        "resourceType": "QuestionnaireResponse",
        "id": "argo-pl-q2-qr-aad0894e-47f4-4ffc-8fab-8fe5487110d2",
        "meta": {
          "versionId": "1",
          "lastUpdated": "2020-12-22T21:43:46-08:00",
          "source": "Health_eData_Inc",
          "tag": [
            {
              "code": "2020-Sep"
            },
            {
              "code": "2021-Jan"
            }
          ]
        },
        "questionnaire": "http://www.fhir.org/guides/argonaut/patient-list/Questionniare/argo-pl-q2",
        "status": "completed",
        "subject": {
          "reference": "Patient/aad0894e-47f4-4ffc-8fab-8fe5487110d2",
          "display": "Ms. Jama227 Corwin846"
        },
        "authored": "2020-12-23T00:16:03.178730Z",
        "item": [
          {
            "linkId": "q1",
            "text": "COVID Contact",
            "answer": [
              {
                "valueBoolean": false
              }
            ]
          },
          {
            "linkId": "q2",
            "text": "Age/Legal Sex",
            "answer": [
              {
                "valueString": "46/Female"
              }
            ]
          },
          {
            "linkId": "q3",
            "text": "SAPS II Score",
            "answer": [
              {
                "valueInteger": 31
              }
            ]
          },
          {
            "linkId": "q4",
            "text": "SAPS II Score change",
            "answer": [
              {
                "valueInteger": 3
              }
            ]
          },
          {
            "linkId": "q5",
            "text": "SOFA Score",
            "answer": [
              {
                "valueInteger": 1
              }
            ]
          },
          {
            "linkId": "q6",
            "text": "Unit",
            "answer": [
              {
                "valueString": "ICU"
              }
            ]
          }
        ]
      },
      "request": {
        "method": "PUT",
        "url": "QuestionnaireResponse/argo-pl-q2-qr-aad0894e-47f4-4ffc-8fab-8fe5487110d2"
      }
    },
    {
      "fullUrl": "http://test.fhir.org/r4/pl-appt-06e1f0dd-5fbe-4480-9bb4-6b54ec02d31b",
      "resource": {
        "resourceType": "Appointment",
        "id": "pl-appt-06e1f0dd-5fbe-4480-9bb4-6b54ec02d31b",
        "status": "booked",
        "serviceType": [
          {
            "coding": [
              {
                "system": "http://fhir.org/guides/argonaut-scheduling/CodeSystem/visit-type",
                "code": "117",
                "display": "Emergency Medical"
              }
            ],
            "text": "Emergency Medical"
          }
        ],
        "specialty": [
          {
            "coding": [
              {
                "system": "http://snomed.info/sct",
                "code": "408478003",
                "display": "Critical care medicine"
              }
            ],
            "text": "Critical care medicine"
          }
        ],
        "appointmentType": {
          "coding": [
            {
              "system": "http://terminology.hl7.org/CodeSystem/v2-0276",
              "code": "EMERGENCY"
            }
          ],
          "text": "Routine"
        },
        "start": "2020-12-23T08:16:02.934559+00:00",
        "end": "2020-12-23T08:46:02.934559+00:00",
        "participant": [
          {
            "actor": {
              "reference": "Patient/06e1f0dd-5fbe-4480-9bb4-6b54ec02d31b",
              "display": "Mr. Elden718 Halvorson124"
            },
            "required": "required",
            "status": "accepted"
          },
          {
            "actor": {
              "reference": "Practitioner/0000016f-57cb-cdac-0000-00000000014a",
              "display": "Dr. Janeth814 Jakubowski832"
            },
            "required": "required",
            "status": "accepted"
          },
          {
            "actor": {
              "reference": "Location/09188b81-0d1d-453c-b0fa-203ef88c794c",
              "display": "HOLY FAMILY HOSPITAL"
            },
            "required": "required",
            "status": "accepted"
          }
        ]
      },
      "request": {
        "method": "PUT",
        "url": "Appointment/pl-appt-06e1f0dd-5fbe-4480-9bb4-6b54ec02d31b"
      }
    },
    {
      "fullUrl": "http://test.fhir.org/r4/pl-appt-b1cf5f57-b061-4b7f-aa9d-6283a121694b",
      "resource": {
        "resourceType": "Appointment",
        "id": "pl-appt-b1cf5f57-b061-4b7f-aa9d-6283a121694b",
        "status": "booked",
        "serviceType": [
          {
            "coding": [
              {
                "system": "http://fhir.org/guides/argonaut-scheduling/CodeSystem/visit-type",
                "code": "117",
                "display": "Emergency Medical"
              }
            ],
            "text": "Emergency Medical"
          }
        ],
        "specialty": [
          {
            "coding": [
              {
                "system": "http://snomed.info/sct",
                "code": "408478003",
                "display": "Critical care medicine"
              }
            ],
            "text": "Critical care medicine"
          }
        ],
        "appointmentType": {
          "coding": [
            {
              "system": "http://terminology.hl7.org/CodeSystem/v2-0276",
              "code": "EMERGENCY"
            }
          ],
          "text": "Routine"
        },
        "start": "2020-12-23T08:16:03.166447+00:00",
        "end": "2020-12-23T08:46:03.166447+00:00",
        "participant": [
          {
            "actor": {
              "reference": "Patient/b1cf5f57-b061-4b7f-aa9d-6283a121694b",
              "display": "Mr. Garland107 Conn188"
            },
            "required": "required",
            "status": "accepted"
          },
          {
            "actor": {
              "reference": "Practitioner/0000016f-57cb-cdac-0000-0000000000dc",
              "display": "Dr. Tommy814 Schmeler639"
            },
            "required": "required",
            "status": "accepted"
          },
          {
            "actor": {
              "reference": "Location/09178b24-9340-47ec-90b2-1aac03248cd5",
              "display": "BETH ISRAEL DEACONESS HOSPITAL - PLYMOUTH"
            },
            "required": "required",
            "status": "accepted"
          }
        ]
      },
      "request": {
        "method": "PUT",
        "url": "Appointment/pl-appt-b1cf5f57-b061-4b7f-aa9d-6283a121694b"
      }
    },
    {
      "fullUrl": "http://test.fhir.org/r4/pl-appt-aad0894e-47f4-4ffc-8fab-8fe5487110d2",
      "resource": {
        "resourceType": "Appointment",
        "id": "pl-appt-aad0894e-47f4-4ffc-8fab-8fe5487110d2",
        "status": "booked",
        "serviceType": [
          {
            "coding": [
              {
                "system": "http://fhir.org/guides/argonaut-scheduling/CodeSystem/visit-type",
                "code": "117",
                "display": "Emergency Medical"
              }
            ],
            "text": "Emergency Medical"
          }
        ],
        "specialty": [
          {
            "coding": [
              {
                "system": "http://snomed.info/sct",
                "code": "408478003",
                "display": "Critical care medicine"
              }
            ],
            "text": "Critical care medicine"
          }
        ],
        "appointmentType": {
          "coding": [
            {
              "system": "http://terminology.hl7.org/CodeSystem/v2-0276",
              "code": "EMERGENCY"
            }
          ],
          "text": "Routine"
        },
        "start": "2020-12-23T08:16:03.398976+00:00",
        "end": "2020-12-23T08:46:03.398976+00:00",
        "participant": [
          {
            "actor": {
              "reference": "Patient/aad0894e-47f4-4ffc-8fab-8fe5487110d2",
              "display": "Ms. Jama227 Corwin846"
            },
            "required": "required",
            "status": "accepted"
          },
          {
            "actor": {
              "reference": "Practitioner/0000016f-57cb-cdac-0000-00000000019a",
              "display": "Dr. Raina861 Willms744"
            },
            "required": "required",
            "status": "accepted"
          },
          {
            "actor": {
              "reference": "Location/76ebe279-211e-493a-8318-4bc784129ac5",
              "display": "SOUTH SHORE HOSPITAL"
            },
            "required": "required",
            "status": "accepted"
          }
        ]
      },
      "request": {
        "method": "PUT",
        "url": "Appointment/pl-appt-aad0894e-47f4-4ffc-8fab-8fe5487110d2"
      }
    },
    {
      "fullUrl": "http://test.fhir.org/r4/5fe62cd5-bfcf-4d3b-a1e9-80d6f75d6f82",
      "resource": {
        "resourceType": "Encounter",
        "id": "5fe62cd5-bfcf-4d3b-a1e9-80d6f75d6f82",
        "meta": {
          "profile": [
            "http://hl7.org/fhir/us/core/StructureDefinition/us-core-encounter"
          ]
        },
        "identifier": [
          {
            "system": "http://example.org",
            "value": "Elden718Halvorson12420181021T2122150700"
          }
        ],
        "status": "finished",
        "class": {
          "system": "http://terminology.hl7.org/CodeSystem/v3-ActCode",
          "code": "IMP"
        },
        "type": [
          {
            "coding": [
              {
                "system": "http://example.org/fhir/encounters",
                "code": "1234",
                "display": "Examplotomy Encounter"
              }
            ],
            "text": "Examplotomy Encounter"
          }
        ],
        "subject": {
          "reference": "Patient/06e1f0dd-5fbe-4480-9bb4-6b54ec02d31b",
          "display": "Mr. Elden718 Halvorson124"
        },
        "participant": [
          {
            "individual": {
              "reference": "Practitioner/0000016f-57cb-cdac-0000-00000000014a",
              "display": "Dr. Janeth814 Jakubowski832"
            }
          }
        ],
        "appointment": [
          {
            "reference": "Appointment/pl-appt-06e1f0dd-5fbe-4480-9bb4-6b54ec02d31b"
          }
        ],
        "period": {
          "start": "2018-10-21T21:22:15-07:00",
          "end": "2018-10-23T22:22:15-07:00"
        },
        "hospitalization": {
          "dischargeDisposition": {
            "coding": [
              {
                "system": "http://www.nubc.org/patient-discharge",
                "code": "1",
                "display": "Discharge to Home or Self Care (Routine Discharge)"
              }
            ],
            "text": "Discharge to Home or Self Care (Routine Discharge)"
          }
        },
        "location": [
          {
            "location": {
              "reference": "Location/09188b81-0d1d-453c-b0fa-203ef88c794c",
              "display": "HOLY FAMILY HOSPITAL"
            }
          }
        ],
        "serviceProvider": {
          "reference": "Organization/a9f20dc1-5147-3789-bcef-bbecb41c5983",
          "display": "HOLY FAMILY HOSPITAL"
        }
      },
      "request": {
        "method": "PUT",
        "url": "Encounter/5fe62cd5-bfcf-4d3b-a1e9-80d6f75d6f82"
      }
    },
    {
      "fullUrl": "http://test.fhir.org/r4/542f9e32-4309-4277-81ce-12419f0d1294",
      "resource": {
        "resourceType": "Encounter",
        "id": "542f9e32-4309-4277-81ce-12419f0d1294",
        "meta": {
          "profile": [
            "http://hl7.org/fhir/us/core/StructureDefinition/us-core-encounter"
          ]
        },
        "identifier": [
          {
            "system": "http://example.org",
            "value": "Garland107Conn18820180217T1507390800"
          }
        ],
        "status": "finished",
        "class": {
          "system": "http://terminology.hl7.org/CodeSystem/v3-ActCode",
          "code": "IMP"
        },
        "type": [
          {
            "coding": [
              {
                "system": "http://example.org/fhir/encounters",
                "code": "1234",
                "display": "Examplotomy Encounter"
              }
            ],
            "text": "Examplotomy Encounter"
          }
        ],
        "subject": {
          "reference": "Patient/b1cf5f57-b061-4b7f-aa9d-6283a121694b",
          "display": "Mr. Garland107 Conn188"
        },
        "participant": [
          {
            "individual": {
              "reference": "Practitioner/0000016f-57cb-cdac-0000-0000000000dc",
              "display": "Dr. Tommy814 Schmeler639"
            }
          }
        ],
        "appointment": [
          {
            "reference": "Appointment/pl-appt-b1cf5f57-b061-4b7f-aa9d-6283a121694b"
          }
        ],
        "period": {
          "start": "2018-02-17T15:07:39-08:00",
          "end": "2018-02-19T16:07:39-08:00"
        },
        "hospitalization": {
          "dischargeDisposition": {
            "coding": [
              {
                "system": "http://www.nubc.org/patient-discharge",
                "code": "1",
                "display": "Discharge to Home or Self Care (Routine Discharge)"
              }
            ],
            "text": "Discharge to Home or Self Care (Routine Discharge)"
          }
        },
        "location": [
          {
            "location": {
              "reference": "Location/09178b24-9340-47ec-90b2-1aac03248cd5",
              "display": "BETH ISRAEL DEACONESS HOSPITAL - PLYMOUTH"
            }
          }
        ],
        "serviceProvider": {
          "reference": "Organization/b1ddf812-1fdd-3adf-b1d5-32cc8bd07ebb",
          "display": "BETH ISRAEL DEACONESS HOSPITAL - PLYMOUTH"
        }
      },
      "request": {
        "method": "PUT",
        "url": "Encounter/542f9e32-4309-4277-81ce-12419f0d1294"
      }
    },
    {
      "fullUrl": "http://test.fhir.org/r4/02ba9ec6-0712-4715-8ba4-5485fc571403",
      "resource": {
        "resourceType": "Encounter",
        "id": "02ba9ec6-0712-4715-8ba4-5485fc571403",
        "meta": {
          "profile": [
            "http://hl7.org/fhir/us/core/StructureDefinition/us-core-encounter"
          ]
        },
        "identifier": [
          {
            "system": "http://example.org",
            "value": "Jama227Corwin84620190706T1847440700"
          }
        ],
        "status": "finished",
        "class": {
          "system": "http://terminology.hl7.org/CodeSystem/v3-ActCode",
          "code": "IMP"
        },
        "type": [
          {
            "coding": [
              {
                "system": "http://example.org/fhir/encounters",
                "code": "1234",
                "display": "Examplotomy Encounter"
              }
            ],
            "text": "Examplotomy Encounter"
          }
        ],
        "subject": {
          "reference": "Patient/aad0894e-47f4-4ffc-8fab-8fe5487110d2",
          "display": "Ms. Jama227 Corwin846"
        },
        "participant": [
          {
            "individual": {
              "reference": "Practitioner/0000016f-57cb-cdac-0000-00000000019a",
              "display": "Dr. Raina861 Willms744"
            }
          }
        ],
        "appointment": [
          {
            "reference": "Appointment/pl-appt-aad0894e-47f4-4ffc-8fab-8fe5487110d2"
          }
        ],
        "period": {
          "start": "2019-07-06T18:47:44-07:00",
          "end": "2019-07-08T19:47:44-07:00"
        },
        "hospitalization": {
          "dischargeDisposition": {
            "coding": [
              {
                "system": "http://www.nubc.org/patient-discharge",
                "code": "1",
                "display": "Discharge to Home or Self Care (Routine Discharge)"
              }
            ],
            "text": "Discharge to Home or Self Care (Routine Discharge)"
          }
        },
        "location": [
          {
            "location": {
              "reference": "Location/76ebe279-211e-493a-8318-4bc784129ac5",
              "display": "SOUTH SHORE HOSPITAL"
            }
          }
        ],
        "serviceProvider": {
          "reference": "Organization/db0acede-4abe-3c01-8d03-5c68a190d8c7",
          "display": "SOUTH SHORE HOSPITAL"
        }
      },
      "request": {
        "method": "PUT",
        "url": "Encounter/02ba9ec6-0712-4715-8ba4-5485fc571403"
      }
    },
    {
      "fullUrl": "http://test.fhir.org/r4/argo-pl-group-all-100",
      "resource": {
        "resourceType": "Group",
        "id": "argo-pl-group-all-100",
        "meta": {
          "lastUpdated": "2020-12-23T00:16:02.551883Z",
          "source": "Health_eData_Inc",
          "profile": [
            "http://www.fhir.org/guides/argonaut/patient-list/StructureDefinition/patientlist"
          ],
          "tag": [
            {
              "code": "2020-Sep"
            },
            {
              "code": "2021-Jan"
            }
          ]
        },
        "extension": [
          {
            "url": "http://www.fhir.org/guides/argonaut/patient-list/StructureDefinition/patientlist-questionnaire",
            "valueReference": {
              "reference": "Questionnaire/argo-pl-q2",
              "display": "Argo PL List Test Questionnaire id=argo-pl-q2"
            }
          }
        ],
        "identifier": [
          {
            "system": "http://example.org/fhir/identifiers",
            "value": "argo-pl-group-all-100"
          }
        ],
        "active": true,
        "type": "person",
        "actual": true,
        "name": "Argo Patient List #100: \"all\" Use Case",
        "quantity": 1,
        "managingEntity": {
          "reference": "Organization/db0acede-4abe-3c01-8d03-5c68a190d8c7",
          "display": "SOUTH SHORE HOSPITAL"
        },
        "member": [
          {
            "extension": [
              {
                "url": "http://www.fhir.org/guides/argonaut/patient-list/StructureDefinition/patientlist-appointment",
                "valueReference": {
                  "reference": "Appointment/pl-appt-aad0894e-47f4-4ffc-8fab-8fe5487110d2",
                  "display": "Argo PL List Test Appointment pl-appt-aad0894e-47f4-4ffc-8fab-8fe5487110d2"
                }
              },
              {
                "url": "http://www.fhir.org/guides/argonaut/patient-list/StructureDefinition/patientlist-encounter",
                "valueReference": {
                  "reference": "Encounter/02ba9ec6-0712-4715-8ba4-5485fc571403",
                  "display": "Argo PL List Test Encounter 02ba9ec6-0712-4715-8ba4-5485fc571403"
                }
              },
              {
                "url": "http://www.fhir.org/guides/argonaut/patient-list/StructureDefinition/patientlist-questionnaireresponse",
                "valueReference": {
                  "reference": "QuestionnaireResponse/argo-pl-q2-qr-aad0894e-47f4-4ffc-8fab-8fe5487110d2",
                  "display": "Argo PL List Test QuestionnaireResponse argo-pl-q2-qr-aad0894e-47f4-4ffc-8fab-8fe5487110d2"
                }
              }
            ],
            "entity": {
              "reference": "Patient/aad0894e-47f4-4ffc-8fab-8fe5487110d2",
              "display": "Ms. Jama227 Corwin846"
            },
            "period": {
              "start": "2020-12-23"
            },
            "inactive": false
          }
        ]
      },
      "request": {
        "method": "PUT",
        "url": "Group/argo-pl-group-all-100"
      }
    },
    {
      "fullUrl": "http://test.fhir.org/r4/argo-pl-group-all-101",
      "resource": {
        "resourceType": "Group",
        "id": "argo-pl-group-all-101",
        "meta": {
          "lastUpdated": "2020-12-23T00:16:02.555139Z",
          "source": "Health_eData_Inc",
          "profile": [
            "http://www.fhir.org/guides/argonaut/patient-list/StructureDefinition/patientlist"
          ],
          "tag": [
            {
              "code": "2020-Sep"
            },
            {
              "code": "2021-Jan"
            }
          ]
        },
        "extension": [
          {
            "url": "http://www.fhir.org/guides/argonaut/patient-list/StructureDefinition/patientlist-questionnaire",
            "valueReference": {
              "reference": "Questionnaire/argo-pl-q2",
              "display": "Argo PL List Test Questionnaire id=argo-pl-q2"
            }
          }
        ],
        "identifier": [
          {
            "system": "http://example.org/fhir/identifiers",
            "value": "argo-pl-group-all-101"
          }
        ],
        "active": true,
        "type": "person",
        "actual": true,
        "name": "Argo Patient List #101: \"all\" Use Case",
        "quantity": 1,
        "managingEntity": {
          "reference": "Organization/b1ddf812-1fdd-3adf-b1d5-32cc8bd07ebb",
          "display": "BETH ISRAEL DEACONESS HOSPITAL - PLYMOUTH"
        },
        "member": [
          {
            "extension": [
              {
                "url": "http://www.fhir.org/guides/argonaut/patient-list/StructureDefinition/patientlist-appointment",
                "valueReference": {
                  "reference": "Appointment/pl-appt-b1cf5f57-b061-4b7f-aa9d-6283a121694b",
                  "display": "Argo PL List Test Appointment pl-appt-b1cf5f57-b061-4b7f-aa9d-6283a121694b"
                }
              },
              {
                "url": "http://www.fhir.org/guides/argonaut/patient-list/StructureDefinition/patientlist-encounter",
                "valueReference": {
                  "reference": "Encounter/542f9e32-4309-4277-81ce-12419f0d1294",
                  "display": "Argo PL List Test Encounter 542f9e32-4309-4277-81ce-12419f0d1294"
                }
              },
              {
                "url": "http://www.fhir.org/guides/argonaut/patient-list/StructureDefinition/patientlist-questionnaireresponse",
                "valueReference": {
                  "reference": "QuestionnaireResponse/argo-pl-q2-qr-b1cf5f57-b061-4b7f-aa9d-6283a121694b",
                  "display": "Argo PL List Test QuestionnaireResponse argo-pl-q2-qr-b1cf5f57-b061-4b7f-aa9d-6283a121694b"
                }
              }
            ],
            "entity": {
              "reference": "Patient/b1cf5f57-b061-4b7f-aa9d-6283a121694b",
              "display": "Mr. Garland107 Conn188"
            },
            "period": {
              "start": "2020-12-23"
            },
            "inactive": false
          }
        ]
      },
      "request": {
        "method": "PUT",
        "url": "Group/argo-pl-group-all-101"
      }
    },
    {
      "fullUrl": "http://test.fhir.org/r4/argo-pl-group-all-102",
      "resource": {
        "resourceType": "Group",
        "id": "argo-pl-group-all-102",
        "meta": {
          "lastUpdated": "2020-12-23T00:16:02.558319Z",
          "source": "Health_eData_Inc",
          "profile": [
            "http://www.fhir.org/guides/argonaut/patient-list/StructureDefinition/patientlist"
          ],
          "tag": [
            {
              "code": "2020-Sep"
            },
            {
              "code": "2021-Jan"
            }
          ]
        },
        "extension": [
          {
            "url": "http://www.fhir.org/guides/argonaut/patient-list/StructureDefinition/patientlist-questionnaire",
            "valueReference": {
              "reference": "Questionnaire/argo-pl-q2",
              "display": "Argo PL List Test Questionnaire id=argo-pl-q2"
            }
          }
        ],
        "identifier": [
          {
            "system": "http://example.org/fhir/identifiers",
            "value": "argo-pl-group-all-102"
          }
        ],
        "active": true,
        "type": "person",
        "actual": true,
        "name": "Argo Patient List #102: \"all\" Use Case",
        "quantity": 1,
        "managingEntity": {
          "reference": "Organization/a9f20dc1-5147-3789-bcef-bbecb41c5983",
          "display": "HOLY FAMILY HOSPITAL"
        },
        "member": [
          {
            "extension": [
              {
                "url": "http://www.fhir.org/guides/argonaut/patient-list/StructureDefinition/patientlist-appointment",
                "valueReference": {
                  "reference": "Appointment/pl-appt-06e1f0dd-5fbe-4480-9bb4-6b54ec02d31b",
                  "display": "Argo PL List Test Appointment pl-appt-06e1f0dd-5fbe-4480-9bb4-6b54ec02d31b"
                }
              },
              {
                "url": "http://www.fhir.org/guides/argonaut/patient-list/StructureDefinition/patientlist-encounter",
                "valueReference": {
                  "reference": "Encounter/5fe62cd5-bfcf-4d3b-a1e9-80d6f75d6f82",
                  "display": "Argo PL List Test Encounter 5fe62cd5-bfcf-4d3b-a1e9-80d6f75d6f82"
                }
              },
              {
                "url": "http://www.fhir.org/guides/argonaut/patient-list/StructureDefinition/patientlist-questionnaireresponse",
                "valueReference": {
                  "reference": "QuestionnaireResponse/argo-pl-q2-qr-06e1f0dd-5fbe-4480-9bb4-6b54ec02d31b",
                  "display": "Argo PL List Test QuestionnaireResponse argo-pl-q2-qr-06e1f0dd-5fbe-4480-9bb4-6b54ec02d31b"
                }
              }
            ],
            "entity": {
              "reference": "Patient/06e1f0dd-5fbe-4480-9bb4-6b54ec02d31b",
              "display": "Mr. Elden718 Halvorson124"
            },
            "period": {
              "start": "2020-12-23"
            },
            "inactive": false
          }
        ]
      },
      "request": {
        "method": "PUT",
        "url": "Group/argo-pl-group-all-102"
      }
    }
  ]
}